stimulus,corrAns,file,condition,block,stdRT_trials.thisRepN,stdRT_trials.thisTrialN,stdRT_trials.thisN,stdRT_trials.thisIndex,practice_trials.thisRepN,practice_trials.thisTrialN,practice_trials.thisN,practice_trials.thisIndex,experiment_trials.thisRepN,experiment_trials.thisTrialN,experiment_trials.thisN,experiment_trials.thisIndex,breakloop.thisRepN,breakloop.thisTrialN,breakloop.thisN,breakloop.thisIndex,std_instructions.started,std_instructions.stopped,continue1.keys,continue1.rt,continue1.started,continue1.stopped,key_resp_stdRT.keys,key_resp_stdRT.rt,key_resp_stdRT.started,key_resp_stdRT.stopped,text.started,text.stopped,task_instructions.started,task_instructions.stopped,continue2.keys,continue2.rt,continue2.started,continue2.stopped,practice_block.started,practice_block.stopped,continue3.keys,continue3.rt,continue3.started,continue3.stopped,trial_instructions_practice.started,trial_instructions_practice.stopped,key_resp_practice.keys,key_resp_practice.corr,key_resp_practice.rt,key_resp_practice.started,key_resp_practice.stopped,image_practice.started,image_practice.stopped,experiment_block.started,experiment_block.stopped,continue4.keys,continue4.rt,continue4.started,continue4.stopped,trial_instructions.started,trial_instructions.stopped,key_resp.keys,key_resp.corr,key_resp.rt,key_resp.started,key_resp.stopped,image.started,image.stopped,breakimage.started,breakimage.stopped,continutebreak.keys,continutebreak.rt,continutebreak.started,continutebreak.stopped,participant,session,date,expName,psychopyVersion,frameRate,
,,,,,,,,,,,,,,,,,,,,,10.563161700003548,None,space,1.0374188999994658,10.563161700003548,None,,,,,,,,,,,,,,,,,,,,,,,,,,,,,,,,,,,,,,,,,,,,,,,,,,001,2021_Jun_16_1034,EventTask,2021.1.4,None,
Press the 'yes' key.,c,,,,0,0,0,0,,,,,,,,,,,,,,,,,,,c,0.6541722000038135,11.677290300001914,None,11.677290300001914,None,,,,,,,,,,,,,,,,,,,,,,,,,,,,,,,,,,,,,,,,,,,,001,2021_Jun_16_1034,EventTask,2021.1.4,None,
Press the 'no' key.,n,,,,0,1,1,1,,,,,,,,,,,,,,,,,,,n,0.4637386999966111,12.37974160000158,None,12.37974160000158,None,,,,,,,,,,,,,,,,,,,,,,,,,,,,,,,,,,,,,,,,,,,,001,2021_Jun_16_1034,EventTask,2021.1.4,None,
Press the 'yes' key.,c,,,,1,0,2,0,,,,,,,,,,,,,,,,,,,c,0.4824875999984215,12.895131900004344,None,12.895131900004344,None,,,,,,,,,,,,,,,,,,,,,,,,,,,,,,,,,,,,,,,,,,,,001,2021_Jun_16_1034,EventTask,2021.1.4,None,
Press the 'no' key.,n,,,,1,1,3,1,,,,,,,,,,,,,,,,,,,n,0.45993790000648005,13.4131686000037,None,13.4131686000037,None,,,,,,,,,,,,,,,,,,,,,,,,,,,,,,,,,,,,,,,,,,,,001,2021_Jun_16_1034,EventTask,2021.1.4,None,
Press the 'yes' key.,c,,,,2,0,4,0,,,,,,,,,,,,,,,,,,,c,0.35926979999931064,13.927306300000055,None,13.927306300000055,None,,,,,,,,,,,,,,,,,,,,,,,,,,,,,,,,,,,,,,,,,,,,001,2021_Jun_16_1034,EventTask,2021.1.4,None,
Press the 'no' key.,n,,,,2,1,5,1,,,,,,,,,,,,,,,,,,,n,0.3161123999962001,14.330043300004036,None,14.330043300004036,None,,,,,,,,,,,,,,,,,,,,,,,,,,,,,,,,,,,,,,,,,,,,001,2021_Jun_16_1034,EventTask,2021.1.4,None,
Press the 'no' key.,n,,,,3,0,6,1,,,,,,,,,,,,,,,,,,,n,0.4918342000019038,14.697060400001646,None,14.697060400001646,None,,,,,,,,,,,,,,,,,,,,,,,,,,,,,,,,,,,,,,,,,,,,001,2021_Jun_16_1034,EventTask,2021.1.4,None,
Press the 'yes' key.,c,,,,3,1,7,0,,,,,,,,,,,,,,,,,,,c,0.3456402999945567,15.249258100004226,None,15.249258100004226,None,,,,,,,,,,,,,,,,,,,,,,,,,,,,,,,,,,,,,,,,,,,,001,2021_Jun_16_1034,EventTask,2021.1.4,None,
Press the 'yes' key.,c,,,,4,0,8,0,,,,,,,,,,,,,,,,,,,c,0.49118949999683537,15.62970530000166,None,15.62970530000166,None,,,,,,,,,,,,,,,,,,,,,,,,,,,,,,,,,,,,,,,,,,,,001,2021_Jun_16_1034,EventTask,2021.1.4,None,
Press the 'no' key.,n,,,,4,1,9,1,,,,,,,,,,,,,,,,,,,n,0.3295577000026242,16.167675199998484,None,16.167675199998484,None,,,,,,,,,,,,,,,,,,,,,,,,,,,,,,,,,,,,,,,,,,,,001,2021_Jun_16_1034,EventTask,2021.1.4,None,
,,,,,,,,,,,,,,,,,,,,,,,,,,,,,,,,,16.53261339999881,None,space,3.9522011000008206,18.497567500002333,None,,,,,,,,,,,,,,,,,,,,,,,,,,,,,,,,,,,,,,001,2021_Jun_16_1034,EventTask,2021.1.4,None,
,,,,,,,,,,,,,,,,,,,,,,,,,,,,,,,,,,,,,,,22.496186600001238,25.501092600003176,space,7.827736400002323,22.496186600001238,None,,,,,,,,,,,,,,,,,,,,,,,,,,,,,,,,001,2021_Jun_16_1034,EventTask,2021.1.4,None,
looking at xray.jpg,c,practice_images/looking at xray.jpg,plausible,practice,,,,,0,0,0,17,,,,,,,,,,,,,,,,,,,,,,,,,,,,,,,,,30.413174000001163,None,c,1,6.179123200003232,30.413174000001163,None,30.413174000001163,None,,,,,,,,,,,,,,,,,,,,,,,001,2021_Jun_16_1034,EventTask,2021.1.4,None,
man with paper in mouth.jpg,n,practice_images/man with paper in mouth.jpg,implausible,practice,,,,,0,1,1,4,,,,,,,,,,,,,,,,,,,,,,,,,,,,,,,,,36.660120699998515,None,n,1,0.7483121999975992,36.660120699998515,None,36.660120699998515,None,,,,,,,,,,,,,,,,,,,,,,,001,2021_Jun_16_1034,EventTask,2021.1.4,None,
man running.jpg,c,practice_images/man running.jpg,plausible,practice,,,,,0,2,2,18,,,,,,,,,,,,,,,,,,,,,,,,,,,,,,,,,37.44508670000505,None,c,1,0.9615038000047207,37.44508670000505,None,37.44508670000505,None,,,,,,,,,,,,,,,,,,,,,,,001,2021_Jun_16_1034,EventTask,2021.1.4,None,
boss bably.jpg,n,practice_images/boss baby.jpg,implausible,practice,,,,,0,3,3,6,,,,,,,,,,,,,,,,,,,,,,,,,,,,,,,,,38.47811480000382,None,n,1,0.8968635999990511,38.47811480000382,None,38.47811480000382,None,,,,,,,,,,,,,,,,,,,,,,,001,2021_Jun_16_1034,EventTask,2021.1.4,None,
kids playing.jpg,c,practice_images/kids playing.jpg,plausible,practice,,,,,0,4,4,16,,,,,,,,,,,,,,,,,,,,,,,,,,,,,,,,,39.42959559999872,None,c,1,0.9914637000038056,39.42959559999872,None,39.42959559999872,None,,,,,,,,,,,,,,,,,,,,,,,001,2021_Jun_16_1034,EventTask,2021.1.4,None,
girl and woman_patio.jpg,c,practice_images/girl and woman_patio.jpg,plausible,practice,,,,,0,5,5,11,,,,,,,,,,,,,,,,,,,,,,,,,,,,,,,,,40.4456978000002,None,None,0,,40.4456978000002,None,40.4456978000002,None,,,,,,,,,,,,,,,,,,,,,,,001,2021_Jun_16_1034,EventTask,2021.1.4,None,
mowing the lawn.jpg,c,practice_images/mowing the lawn.jpg,plausible,practice,,,,,0,6,6,19,,,,,,,,,,,,,,,,,,,,,,,,,,,,,,,,,40.462283300000124,None,None,0,,40.462283300000124,None,40.462283300000124,None,,,,,,,,,,,,,,,,,,,,,,,001,2021_Jun_16_1034,EventTask,2021.1.4,None,
sawing apple.jpg,n,practice_images/sawing apple.jpg,implausible,practice,,,,,0,7,7,2,,,,,,,,,,,,,,,,,,,,,,,,,,,,,,,,,40.462283300000124,None,None,0,,40.462283300000124,None,40.462283300000124,None,,,,,,,,,,,,,,,,,,,,,,,001,2021_Jun_16_1034,EventTask,2021.1.4,None,
boxer training.jpg,c,practice_images/boxer training.jpg,plausible,practice,,,,,0,8,8,10,,,,,,,,,,,,,,,,,,,,,,,,,,,,,,,,,40.462283300000124,None,None,0,,40.462283300000124,None,40.462283300000124,None,,,,,,,,,,,,,,,,,,,,,,,001,2021_Jun_16_1034,EventTask,2021.1.4,None,
giant coffee.jpg,n,practice_images/giant coffee.jpg,implausible,practice,,,,,0,9,9,8,,,,,,,,,,,,,,,,,,,,,,,,,,,,,,,,,40.47886880000005,None,None,0,,40.47886880000005,None,40.47886880000005,None,,,,,,,,,,,,,,,,,,,,,,,001,2021_Jun_16_1034,EventTask,2021.1.4,None,
family cooking.jpg,c,practice_images/family cooking.jpg,plausible,practice,,,,,0,10,10,15,,,,,,,,,,,,,,,,,,,,,,,,,,,,,,,,,40.47886880000005,None,None,0,,40.47886880000005,None,40.47886880000005,None,,,,,,,,,,,,,,,,,,,,,,,001,2021_Jun_16_1034,EventTask,2021.1.4,None,
buisness man working.jpg,c,practice_images/buisness man working.jpg,plausible,practice,,,,,0,11,11,12,,,,,,,,,,,,,,,,,,,,,,,,,,,,,,,,,40.47886880000005,None,None,0,,40.47886880000005,None,40.47886880000005,None,,,,,,,,,,,,,,,,,,,,,,,001,2021_Jun_16_1034,EventTask,2021.1.4,None,
woman vacuuming grass.jpg,n,practice_images/woman vacuuming grass.jpg,implausible,practice,,,,,0,12,12,9,,,,,,,,,,,,,,,,,,,,,,,,,,,,,,,,,40.495454299999984,None,None,0,,40.495454299999984,None,40.495454299999984,None,,,,,,,,,,,,,,,,,,,,,,,001,2021_Jun_16_1034,EventTask,2021.1.4,None,
dog pilot.jpg,n,practice_images/dog pilot.jpg,implausible,practice,,,,,0,13,13,3,,,,,,,,,,,,,,,,,,,,,,,,,,,,,,,,,40.495454299999984,None,None,0,,40.495454299999984,None,40.495454299999984,None,,,,,,,,,,,,,,,,,,,,,,,001,2021_Jun_16_1034,EventTask,2021.1.4,None,
underwater skateboard.jpg,n,practice_images/underwater skateboard.jpg,implausible,practice,,,,,0,14,14,7,,,,,,,,,,,,,,,,,,,,,,,,,,,,,,,,,40.51203979999991,None,None,0,,40.51203979999991,None,40.51203979999991,None,,,,,,,,,,,,,,,,,,,,,,,001,2021_Jun_16_1034,EventTask,2021.1.4,None,
throwing noodles.jpg,n,practice_images/throwing noodles.jpg,implausible,practice,,,,,0,15,15,5,,,,,,,,,,,,,,,,,,,,,,,,,,,,,,,,,40.51203979999991,None,None,0,,40.51203979999991,None,40.51203979999991,None,,,,,,,,,,,,,,,,,,,,,,,001,2021_Jun_16_1034,EventTask,2021.1.4,None,
parking lot.jpg,c,practice_images/parking lot.jpg,plausible,practice,,,,,0,16,16,14,,,,,,,,,,,,,,,,,,,,,,,,,,,,,,,,,40.52862529999984,None,None,0,,40.52862529999984,None,40.52862529999984,None,,,,,,,,,,,,,,,,,,,,,,,001,2021_Jun_16_1034,EventTask,2021.1.4,None,
dog playing.jpg,c,practice_images/dog playing.jpg,plausible,practice,,,,,0,17,17,13,,,,,,,,,,,,,,,,,,,,,,,,,,,,,,,,,40.52862529999984,None,None,0,,40.52862529999984,None,40.52862529999984,None,,,,,,,,,,,,,,,,,,,,,,,001,2021_Jun_16_1034,EventTask,2021.1.4,None,
bikini woman gun.jpg,n,practice_images/bikini woman gun.jpg,implausible,practice,,,,,0,18,18,1,,,,,,,,,,,,,,,,,,,,,,,,,,,,,,,,,40.52862529999984,None,None,0,,40.52862529999984,None,40.52862529999984,None,,,,,,,,,,,,,,,,,,,,,,,001,2021_Jun_16_1034,EventTask,2021.1.4,None,
balancing on umbrella.jpg,n,practice_images/balancing on umbrella.jpg,implausible,practice,,,,,0,19,19,0,,,,,,,,,,,,,,,,,,,,,,,,,,,,,,,,,40.545210799999765,None,None,0,,40.545210799999765,None,40.545210799999765,None,,,,,,,,,,,,,,,,,,,,,,,001,2021_Jun_16_1034,EventTask,2021.1.4,None,
,,,,,,,,,,,,,,,,,,,,,,,,,,,,,,,,,,,,,,,,,,,,,,,,,,,,,,40.559712900001614,None,space,10.373711000000185,42.54612250000355,None,,,,,,,,,,,,,,,,,001,2021_Jun_16_1034,EventTask,2021.1.4,None,
divers in empty pool.jpg,n,images/divers in empty pool.jpg,Implausible,2,,,,,,,,,0,0,0,135,,,,,,,,,,,,,,,,,,,,,,,,,,,,,,,,,,,,,,,,,,,,53.00990119999915,None,c,0,1.395072799998161,53.00990119999915,None,53.00990119999915,None,,,,,,,,001,2021_Jun_16_1034,EventTask,2021.1.4,None,
baby crib in desk drawer.jpg,n,images/baby crib in desk drawer.jpg,Implausible,2,,,,,,,,,0,1,1,158,,,,,,,,,,,,,,,,,,,,,,,,,,,,,,,,,,,,,,,,,,,,54.47592889999942,None,n,1,1.7383371999967494,54.47592889999942,None,54.47592889999942,None,,,,,,,,001,2021_Jun_16_1034,EventTask,2021.1.4,None,
man praying to soccer ball in tv.jpg,n,images/man praying to soccer ball in tv.jpg,Implausible,2,,,,,,,,,0,2,2,236,,,,,,,,,,,,,,,,,,,,,,,,,,,,,,,,,,,,,,,,,,,,56.30808970000362,None,n,1,1.7709385999987717,56.30808970000362,None,56.30808970000362,None,,,,,,,,001,2021_Jun_16_1034,EventTask,2021.1.4,None,
man_playing guitar.jpg,c,images/man_playing guitar.jpg,Plausible,1,,,,,,,,,0,3,3,118,,,,,,,,,,,,,,,,,,,,,,,,,,,,,,,,,,,,,,,,,,,,58.12456380000367,None,c,1,2.434771499996714,58.12456380000367,None,58.12456380000367,None,,,,,,,,001,2021_Jun_16_1034,EventTask,2021.1.4,None,
girl_hugging dog.jpg,c,images/girl_hugging dog.jpg,Plausible,1,,,,,,,,,0,4,4,81,,,,,,,,,,,,,,,,,,,,,,,,,,,,,,,,,,,,,,,,,,,,60.642258600004425,None,c,1,1.1565017999964766,60.642258600004425,None,60.642258600004425,None,,,,,,,,001,2021_Jun_16_1034,EventTask,2021.1.4,None,
man_playing violin.jpg,c,images/man_playing violin.jpg,Plausible,1,,,,,,,,,0,5,5,83,,,,,,,,,,,,,,,,,,,,,,,,,,,,,,,,,,,,,,,,,,,,61.89231320000545,None,c,1,0.7226057000007131,61.89231320000545,None,61.89231320000545,None,,,,,,,,001,2021_Jun_16_1034,EventTask,2021.1.4,None,
man_golfing mtn.jpg,c,images/man_golfing mtn.jpg,Plausible,1,,,,,,,,,0,6,6,86,,,,,,,,,,,,,,,,,,,,,,,,,,,,,,,,,,,,,,,,,,,,62.69209740000224,None,c,1,0.904818900002283,62.69209740000224,None,62.69209740000224,None,,,,,,,,001,2021_Jun_16_1034,EventTask,2021.1.4,None,
sawing loaf of bread.jpg,n,images/sawing loaf of bread.jpg,Implausible,1,,,,,,,,,0,7,7,10,,,,,,,,,,,,,,,,,,,,,,,,,,,,,,,,,,,,,,,,,,,,63.65737739999895,None,n,1,0.9720177999988664,63.65737739999895,None,63.65737739999895,None,,,,,,,,001,2021_Jun_16_1034,EventTask,2021.1.4,None,
kid_fishing.jpg,c,images/kid_fishing.jpg,Plausible,1,,,,,,,,,0,8,8,39,,,,,,,,,,,,,,,,,,,,,,,,,,,,,,,,,,,,,,,,,,,,64.70685239999875,None,c,1,1.2895365000003949,64.70685239999875,None,64.70685239999875,None,,,,,,,,001,2021_Jun_16_1034,EventTask,2021.1.4,None,
woman_kicking garment bag.jpg,n,images/woman_kicking garment bag.jpg,Implausible,1,,,,,,,,,0,9,9,126,,,,,,,,,,,,,,,,,,,,,,,,,,,,,,,,,,,,,,,,,,,,66.0583420000039,None,n,1,1.2027793999950518,66.0583420000039,None,66.0583420000039,None,,,,,,,,001,2021_Jun_16_1034,EventTask,2021.1.4,None,
stethoscope to egg.jpg,n,images/stethoscope to egg.jpg,Implausible,1,,,,,,,,,0,10,10,100,,,,,,,,,,,,,,,,,,,,,,,,,,,,,,,,,,,,,,,,,,,,67.32586580000498,None,n,1,1.5111295999959111,67.32586580000498,None,67.32586580000498,None,,,,,,,,001,2021_Jun_16_1034,EventTask,2021.1.4,None,
woman_runner.jpg,c,images/woman_runner.jpg,Plausible,2,,,,,,,,,0,11,11,197,,,,,,,,,,,,,,,,,,,,,,,,,,,,,,,,,,,,,,,,,,,,68.89164130000427,None,c,1,0.9197023000015179,68.89164130000427,None,68.89164130000427,None,,,,,,,,001,2021_Jun_16_1034,EventTask,2021.1.4,None,
man cleaning_boxing match asst.jpg,n,images/man cleaning_boxing match asst.jpg,Implausible,2,,,,,,,,,0,12,12,209,,,,,,,,,,,,,,,,,,,,,,,,,,,,,,,,,,,,,,,,,,,,69.8738874000046,None,n,1,2.371737100002065,69.8738874000046,None,69.8738874000046,None,,,,,,,,001,2021_Jun_16_1034,EventTask,2021.1.4,None,
boy_walking dog.jpg,c,images/boy_walking dog.jpg,Plausible,1,,,,,,,,,0,13,13,27,,,,,,,,,,,,,,,,,,,,,,,,,,,,,,,,,,,,,,,,,,,,72.32533300000068,None,c,1,1.0707834000058938,72.32533300000068,None,72.32533300000068,None,,,,,,,,001,2021_Jun_16_1034,EventTask,2021.1.4,None,
woman_rock climbing.jpg,c,images/woman_rock climbing.jpg,Plausible,2,,,,,,,,,0,14,14,188,,,,,,,,,,,,,,,,,,,,,,,,,,,,,,,,,,,,,,,,,,,,73.47535680000146,None,c,1,1.560345199999574,73.47535680000146,None,73.47535680000146,None,,,,,,,,001,2021_Jun_16_1034,EventTask,2021.1.4,None,
man_golfing.jpg,c,images/man_golfing.jpg,Plausible,1,,,,,,,,,0,15,15,8,,,,,,,,,,,,,,,,,,,,,,,,,,,,,,,,,,,,,,,,,,,,75.09150400000362,None,n,0,0.7361118999979226,75.09150400000362,None,75.09150400000362,None,,,,,,,,001,2021_Jun_16_1034,EventTask,2021.1.4,None,
band in the street.jpg,c,images/band in the street.jpg,Plausible,1,,,,,,,,,0,16,16,104,,,,,,,,,,,,,,,,,,,,,,,,,,,,,,,,,,,,,,,,,,,,75.87269400000514,None,c,1,1.7942929999990156,75.87269400000514,None,75.87269400000514,None,,,,,,,,001,2021_Jun_16_1034,EventTask,2021.1.4,None,
man and woman_jumping into water.jpg,c,images/man and woman_jumping into water.jpg,Plausible,1,,,,,,,,,0,17,17,114,,,,,,,,,,,,,,,,,,,,,,,,,,,,,,,,,,,,,,,,,,,,77.7223828999995,None,c,1,1.26447090000147,77.7223828999995,None,77.7223828999995,None,,,,,,,,001,2021_Jun_16_1034,EventTask,2021.1.4,None,
man holding up toilet.jpg,n,images/man holding up toilet.jpg,Implausible,2,,,,,,,,,0,18,18,248,,,,,,,,,,,,,,,,,,,,,,,,,,,,,,,,,,,,,,,,,,,,79.07258189999993,None,n,1,1.1792124999992666,79.07258189999993,None,79.07258189999993,None,,,,,,,,001,2021_Jun_16_1034,EventTask,2021.1.4,None,
meeting with naked woman.jpg,n,images/meeting with naked woman.jpg,Implausible,1,,,,,,,,,0,19,19,54,,,,,,,,,,,,,,,,,,,,,,,,,,,,,,,,,,,,,,,,,,,,80.32193310000002,None,n,1,0.6166798999984167,80.32193310000002,None,80.32193310000002,None,,,,,,,,001,2021_Jun_16_1034,EventTask,2021.1.4,None,
kicking soccer ball underwater.jpg,n,images/kicking soccer ball underwater.jpg,Implausible,2,,,,,,,,,0,20,20,207,,,,,,,,,,,,,,,,,,,,,,,,,,,,,,,,,,,,,,,,,,,,81.02375600000232,None,n,1,1.8683541999998852,81.02375600000232,None,81.02375600000232,None,,,,,,,,001,2021_Jun_16_1034,EventTask,2021.1.4,None,
man_BMX bike.jpg,c,images/man_BMX bike.jpg,Plausible,1,,,,,,,,,0,21,21,127,,,,,,,,,,,,,,,,,,,,,,,,,,,,,,,,,,,,,,,,,,,,82.9568752999985,None,c,1,1.0209133000025759,82.9568752999985,None,82.9568752999985,None,,,,,,,,001,2021_Jun_16_1034,EventTask,2021.1.4,None,
scuba diver on mtn.jpg,n,images/scuba diver on mtn.jpg,Implausible,1,,,,,,,,,0,22,22,71,,,,,,,,,,,,,,,,,,,,,,,,,,,,,,,,,,,,,,,,,,,,84.07168250000541,None,c,0,1.562294200004544,84.07168250000541,None,84.07168250000541,None,,,,,,,,001,2021_Jun_16_1034,EventTask,2021.1.4,None,
woman_ball and chain in desert.jpg,n,images/woman_ball and chain in desert.jpg,Implausible,1,,,,,,,,,0,23,23,101,,,,,,,,,,,,,,,,,,,,,,,,,,,,,,,,,,,,,,,,,,,,85.70526410000457,None,c,0,0.17540220000228146,85.70526410000457,None,85.70526410000457,None,,,,,,,,001,2021_Jun_16_1034,EventTask,2021.1.4,None,
woman_ironing.jpg,c,images/woman_ironing.jpg,Plausible,2,,,,,,,,,0,24,24,181,,,,,,,,,,,,,,,,,,,,,,,,,,,,,,,,,,,,,,,,,,,,85.97146510000312,None,c,1,0.13910320000286447,85.97146510000312,None,85.97146510000312,None,,,,,,,,001,2021_Jun_16_1034,EventTask,2021.1.4,None,
man swinging on street pole.jpg,n,images/man swinging on street pole.jpg,Implausible,2,,,,,,,,,0,25,25,157,,,,,,,,,,,,,,,,,,,,,,,,,,,,,,,,,,,,,,,,,,,,86.17159070000343,None,c,0,0.13775319999695057,86.17159070000343,None,86.17159070000343,None,,,,,,,,001,2021_Jun_16_1034,EventTask,2021.1.4,None,
boys at ATM.jpg,n,images/boys at ATM.jpg,Implausible,2,,,,,,,,,0,26,26,160,,,,,,,,,,,,,,,,,,,,,,,,,,,,,,,,,,,,,,,,,,,,86.38973320000514,None,c,0,0.11789480000152253,86.38973320000514,None,86.38973320000514,None,,,,,,,,001,2021_Jun_16_1034,EventTask,2021.1.4,None,
man_cracking coconut island.jpg,c,images/man_cracking coconut island.jpg,Plausible,1,,,,,,,,,0,27,27,75,,,,,,,,,,,,,,,,,,,,,,,,,,,,,,,,,,,,,,,,,,,,86.55476250000356,None,c,1,0.15124240000295686,86.55476250000356,None,86.55476250000356,None,,,,,,,,001,2021_Jun_16_1034,EventTask,2021.1.4,None,
girl_jumping broken bridge.jpg,c,images/girl_jumping broken bridge.jpg,Plausible,1,,,,,,,,,0,28,28,26,,,,,,,,,,,,,,,,,,,,,,,,,,,,,,,,,,,,,,,,,,,,86.79081759999826,None,c,1,0.0816999999951804,86.79081759999826,None,86.79081759999826,None,,,,,,,,001,2021_Jun_16_1034,EventTask,2021.1.4,None,
man_roller skating.jpg,c,images/man_roller skating.jpg,Plausible,1,,,,,,,,,0,29,29,76,,,,,,,,,,,,,,,,,,,,,,,,,,,,,,,,,,,,,,,,,,,,86.93997520000266,None,c,1,0.11526929999672575,86.93997520000266,None,86.93997520000266,None,,,,,,,,001,2021_Jun_16_1034,EventTask,2021.1.4,None,
man_skateboard in city.jpg,c,images/man_skateboard in city.jpg,Plausible,1,,,,,,,,,0,30,30,69,,,,,,,,,,,,,,,,,,,,,,,,,,,,,,,,,,,,,,,,,,,,87.12323170000309,None,c,1,0.04918210000323597,87.12323170000309,None,87.12323170000309,None,,,,,,,,001,2021_Jun_16_1034,EventTask,2021.1.4,None,
business man in cape.jpg,n,images/business man in cape.jpg,Implausible,2,,,,,,,,,0,31,31,203,,,,,,,,,,,,,,,,,,,,,,,,,,,,,,,,,,,,,,,,,,,,87.25609990000521,None,c,0,0.07439019999583252,87.25609990000521,None,87.25609990000521,None,,,,,,,,001,2021_Jun_16_1034,EventTask,2021.1.4,None,
business man jumping over briefcase.jpg,n,images/business man jumping over briefcase.jpg,Implausible,1,,,,,,,,,0,32,32,43,,,,,,,,,,,,,,,,,,,,,,,,,,,,,,,,,,,,,,,,,,,,87.390699399999,None,c,0,0.11422610000590794,87.390699399999,None,87.390699399999,None,,,,,,,,001,2021_Jun_16_1034,EventTask,2021.1.4,None,
woman_mowing lawn.jpg,c,images/woman_mowing lawn.jpg,Plausible,2,,,,,,,,,0,33,33,130,,,,,,,,,,,,,,,,,,,,,,,,,,,,,,,,,,,,,,,,,,,,87.58837270000367,None,c,1,0.09036430000560358,87.58837270000367,None,87.58837270000367,None,,,,,,,,001,2021_Jun_16_1034,EventTask,2021.1.4,None,
man eating shredded paper.jpg,n,images/man eating shredded paper.jpg,Implausible,2,,,,,,,,,0,34,34,179,,,,,,,,,,,,,,,,,,,,,,,,,,,,,,,,,,,,,,,,,,,,87.74020150000433,None,c,0,0.1371110000036424,87.74020150000433,None,87.74020150000433,None,,,,,,,,001,2021_Jun_16_1034,EventTask,2021.1.4,None,
business man long jump over binders.jpg,n,images/business man long jump over binders.jpg,Implausible,2,,,,,,,,,0,35,35,156,,,,,,,,,,,,,,,,,,,,,,,,,,,,,,,,,,,,,,,,,,,,87.95630900000106,None,c,0,0.1111802000013995,87.95630900000106,None,87.95630900000106,None,,,,,,,,001,2021_Jun_16_1034,EventTask,2021.1.4,None,
office presentation in desert.jpg,n,images/office presentation in desert.jpg,Implausible,1,,,,,,,,,0,36,36,4,,,,,,,,,,,,,,,,,,,,,,,,,,,,,,,,,,,,,,,,,,,,88.13842640000075,None,c,0,0.11133210000116378,88.13842640000075,None,88.13842640000075,None,,,,,,,,001,2021_Jun_16_1034,EventTask,2021.1.4,None,
cheese grater on rock.jpg,n,images/cheese grater on rock.jpg,Implausible,2,,,,,,,,,0,37,37,163,,,,,,,,,,,,,,,,,,,,,,,,,,,,,,,,,,,,,,,,,,,,88.30433389999962,None,c,0,0.11187169999902835,88.30433389999962,None,88.30433389999962,None,,,,,,,,001,2021_Jun_16_1034,EventTask,2021.1.4,None,
woman_ice skating.jpg,c,images/woman_ice skating.jpg,Plausible,2,,,,,,,,,0,38,38,252,,,,,,,,,,,,,,,,,,,,,,,,,,,,,,,,,,,,,,,,,,,,88.47280590000446,None,c,1,0.11756289999902947,88.47280590000446,None,88.47280590000446,None,,,,,,,,001,2021_Jun_16_1034,EventTask,2021.1.4,None,
person walking on car.jpg,n,images/person walking on car.jpg,Implausible,1,,,,,,,,,0,39,39,5,,,,,,,,,,,,,,,,,,,,,,,,,,,,,,,,,,,,,,,,,,,,88.65443280000181,None,c,0,0.1259838000041782,88.65443280000181,None,88.65443280000181,None,,,,,,,,001,2021_Jun_16_1034,EventTask,2021.1.4,None,
woman_plucking eyebrow.jpg,c,images/woman_plucking eyebrow.jpg,Plausible,2,,,,,,,,,0,40,40,242,,,,,,,,,,,,,,,,,,,,,,,,,,,,,,,,,,,,,,,,,,,,88.85476420000487,None,c,1,0.10047429999394808,88.85476420000487,None,88.85476420000487,None,,,,,,,,001,2021_Jun_16_1034,EventTask,2021.1.4,None,
boy with computer dog.jpg,n,images/boy with computer dog.jpg,Implausible,2,,,,,,,,,0,41,41,228,,,,,,,,,,,,,,,,,,,,,,,,,,,,,,,,,,,,,,,,,,,,89.02286070000264,None,c,0,0.13777269999991404,89.02286070000264,None,89.02286070000264,None,,,,,,,,001,2021_Jun_16_1034,EventTask,2021.1.4,None,
woman_running w surfboard.jpg,c,images/woman_running w surfboard.jpg,Plausible,2,,,,,,,,,0,42,42,233,,,,,,,,,,,,,,,,,,,,,,,,,,,,,,,,,,,,,,,,,,,,89.20685840000078,None,c,1,0.17675279999821214,89.20685840000078,None,89.20685840000078,None,,,,,,,,001,2021_Jun_16_1034,EventTask,2021.1.4,None,
man_high jump.jpg,c,images/man_high jump.jpg,Plausible,1,,,,,,,,,0,43,43,65,,,,,,,,,,,,,,,,,,,,,,,,,,,,,,,,,,,,,,,,,,,,89.45636650000233,None,c,1,0.14118250000319676,89.45636650000233,None,89.45636650000233,None,,,,,,,,001,2021_Jun_16_1034,EventTask,2021.1.4,None,
kicking soccer ball.jpg,c,images/kicking soccer ball.jpg,Plausible,1,,,,,,,,,0,44,44,107,,,,,,,,,,,,,,,,,,,,,,,,,,,,,,,,,,,,,,,,,,,,89.68819179999991,None,c,1,0.0752957000004244,89.68819179999991,None,89.68819179999991,None,,,,,,,,001,2021_Jun_16_1034,EventTask,2021.1.4,None,
man_courthouse steps.jpg,c,images/man_courthouse steps.jpg,Plausible,1,,,,,,,,,0,45,45,60,,,,,,,,,,,,,,,,,,,,,,,,,,,,,,,,,,,,,,,,,,,,89.80633330000273,None,c,1,0.1318634999988717,89.80633330000273,None,89.80633330000273,None,,,,,,,,001,2021_Jun_16_1034,EventTask,2021.1.4,None,
woman_clothesline.jpg,c,images/woman_clothesline.jpg,Plausible,2,,,,,,,,,0,46,46,166,,,,,,,,,,,,,,,,,,,,,,,,,,,,,,,,,,,,,,,,,,,,90.0062900999983,None,c,1,0.11378410000179429,90.0062900999983,None,90.0062900999983,None,,,,,,,,001,2021_Jun_16_1034,EventTask,2021.1.4,None,
man_playing violin under water.jpg,n,images/man_playing violin under water.jpg,Implausible,1,,,,,,,,,0,47,47,55,,,,,,,,,,,,,,,,,,,,,,,,,,,,,,,,,,,,,,,,,,,,90.1549210000012,None,c,0,0.1639763999992283,90.1549210000012,None,90.1549210000012,None,,,,,,,,001,2021_Jun_16_1034,EventTask,2021.1.4,None,
eating raw fish.jpg,n,images/eating raw fish.jpg,Implausible,2,,,,,,,,,0,48,48,165,,,,,,,,,,,,,,,,,,,,,,,,,,,,,,,,,,,,,,,,,,,,90.3717575000046,None,c,0,0.14442550000239862,90.3717575000046,None,90.3717575000046,None,,,,,,,,001,2021_Jun_16_1034,EventTask,2021.1.4,None,
woman_shoe shopping.jpg,c,images/woman_shoe shopping.jpg,Plausible,2,,,,,,,,,0,49,49,144,,,,,,,,,,,,,,,,,,,,,,,,,,,,,,,,,,,,,,,,,,,,90.57371039999998,None,c,1,0.15728450000460725,90.57371039999998,None,90.57371039999998,None,,,,,,,,001,2021_Jun_16_1034,EventTask,2021.1.4,None,
boy_holding dog.jpg,c,images/boy_holding dog.jpg,Plausible,1,,,,,,,,,0,50,50,87,,,,,,,,,,,,,,,,,,,,,,,,,,,,,,,,,,,,,,,,,,,,90.82220840000082,None,c,1,0.1151906000013696,90.82220840000082,None,90.82220840000082,None,,,,,,,,001,2021_Jun_16_1034,EventTask,2021.1.4,None,
woman sewing hair.jpg,n,images/woman sewing hair.jpg,Implausible,1,,,,,,,,,0,51,51,11,,,,,,,,,,,,,,,,,,,,,,,,,,,,,,,,,,,,,,,,,,,,90.98972630000208,None,c,0,0.1376148000053945,90.98972630000208,None,90.98972630000208,None,,,,,,,,001,2021_Jun_16_1034,EventTask,2021.1.4,None,
office woman_plastic wrap on face and hands.jpg,n,images/office woman_plastic wrap on face and hands.jpg,Implausible,1,,,,,,,,,0,52,52,34,,,,,,,,,,,,,,,,,,,,,,,,,,,,,,,,,,,,,,,,,,,,91.18808569999965,None,c,0,0.2671524999968824,91.18808569999965,None,91.18808569999965,None,,,,,,,,001,2021_Jun_16_1034,EventTask,2021.1.4,None,
eating cords w chopsticks.jpg,n,images/eating cords w chopsticks.jpg,Implausible,2,,,,,,,,,0,53,53,253,,,,,,,,,,,,,,,,,,,,,,,,,,,,,,,,,,,,,,,,,,,,91.52118260000134,None,c,0,0.29119559999526246,91.52118260000134,None,91.52118260000134,None,,,,,,,,001,2021_Jun_16_1034,EventTask,2021.1.4,None,
man drinking water with goldfish.jpg,n,images/man drinking water with goldfish.jpg,Implausible,2,,,,,,,,,0,54,54,190,,,,,,,,,,,,,,,,,,,,,,,,,,,,,,,,,,,,,,,,,,,,91.85611780000181,None,c,0,0.16254270000354154,91.85611780000181,None,91.85611780000181,None,,,,,,,,001,2021_Jun_16_1034,EventTask,2021.1.4,None,
man_wind instrument on bench.jpg,c,images/man_wind instrument on bench.jpg,Plausible,2,,,,,,,,,0,55,55,229,,,,,,,,,,,,,,,,,,,,,,,,,,,,,,,,,,,,,,,,,,,,92.08777260000352,None,c,1,0.16150020000350196,92.08777260000352,None,92.08777260000352,None,,,,,,,,001,2021_Jun_16_1034,EventTask,2021.1.4,None,
lifeguard at beach.jpg,c,images/lifeguard at beach.jpg,Plausible,1,,,,,,,,,0,56,56,35,,,,,,,,,,,,,,,,,,,,,,,,,,,,,,,,,,,,,,,,,,,,92.32276920000004,None,c,1,0.14077419999375707,92.32276920000004,None,92.32276920000004,None,,,,,,,,001,2021_Jun_16_1034,EventTask,2021.1.4,None,
woman_kitchen frisbee.jpg,n,images/woman_kitchen frisbee.jpg,Implausible,1,,,,,,,,,0,57,57,123,,,,,,,,,,,,,,,,,,,,,,,,,,,,,,,,,,,,,,,,,,,,92.53759020000143,None,c,0,0.15632629999890924,92.53759020000143,None,92.53759020000143,None,,,,,,,,001,2021_Jun_16_1034,EventTask,2021.1.4,None,
woman golfing off mans face.jpg,n,images/woman golfing off mans face.jpg,Implausible,1,,,,,,,,,0,58,58,96,,,,,,,,,,,,,,,,,,,,,,,,,,,,,,,,,,,,,,,,,,,,92.78800090000004,None,c,0,0.15227439999580383,92.78800090000004,None,92.78800090000004,None,,,,,,,,001,2021_Jun_16_1034,EventTask,2021.1.4,None,
chefs_menu.jpg,c,images/chefs_menu.jpg,Plausible,1,,,,,,,,,0,59,59,31,,,,,,,,,,,,,,,,,,,,,,,,,,,,,,,,,,,,,,,,,,,,92.97307770000043,None,c,1,0.2293774000063422,92.97307770000043,None,92.97307770000043,None,,,,,,,,001,2021_Jun_16_1034,EventTask,2021.1.4,None,
walking wooden bridge.jpg,c,images/walking wooden bridge.jpg,Plausible,2,,,,,,,,,0,60,60,152,,,,,,,,,,,,,,,,,,,,,,,,,,,,,,,,,,,,,,,,,,,,93.25448509999842,None,c,1,0.23422939999727532,93.25448509999842,None,93.25448509999842,None,,,,,,,,001,2021_Jun_16_1034,EventTask,2021.1.4,None,
salting turf.jpg,n,images/salting turf.jpg,Implausible,1,,,,,,,,,0,61,61,2,,,,,,,,,,,,,,,,,,,,,,,,,,,,,,,,,,,,,,,,,,,,93.57135140000173,None,c,0,0.13951690000249073,93.57135140000173,None,93.57135140000173,None,,,,,,,,001,2021_Jun_16_1034,EventTask,2021.1.4,None,
romantic beach dinner.jpg,c,images/romantic beach dinner.jpg,Plausible,2,,,,,,,,,0,62,62,150,,,,,,,,,,,,,,,,,,,,,,,,,,,,,,,,,,,,,,,,,,,,93.7708891000002,None,c,1,0.17060270000365563,93.7708891000002,None,93.7708891000002,None,,,,,,,,001,2021_Jun_16_1034,EventTask,2021.1.4,None,
two girls_picture.jpg,c,images/two girls_picture.jpg,Plausible,2,,,,,,,,,0,63,63,255,0,0,0,0,,,,,,,,,,,,,,,,,,,,,,,,,,,,,,,,,,,,,,,,94.0038194000008,None,c,1,0.15241160000005038,94.0038194000008,None,94.0038194000008,None,94.19254870000441,None,space,4.362248200006434,94.19254870000441,None,,001,2021_Jun_16_1034,EventTask,2021.1.4,None,
two girls_picture.jpg,c,images/two girls_picture.jpg,Plausible,2,,,,,,,,,0,63,63,255,,,,,,,,,,,,,,,,,,,,,,,,,,,,,,,,,,,,,,,,,,,,,,,,,,,,,,,,,,,,001,2021_Jun_16_1034,EventTask,2021.1.4,None,
man_eating pizza.jpg,c,images/man_eating pizza.jpg,Plausible,1,,,,,,,,,0,64,64,41,,,,,,,,,,,,,,,,,,,,,,,,,,,,,,,,,,,,,,,,,,,,98.58733880000364,None,c,1,0.5634081999960472,98.58733880000364,None,98.58733880000364,None,,,,,,,,001,2021_Jun_16_1034,EventTask,2021.1.4,None,
